Folder: photobiologyFilters/data-raw/photo-filters

Note: README.md
# photobiologyFilters

[![](https://www.r-pkg.org/badges/version/photobiologyFilters)](https://cran.r-project.org/package=photobiologyFilters)

Package **photobiologyFilters** is a collection of spectral
transmittance data for more than 250 filters measured in our lab or for
which data have been made available by the suppliers for inclussion in
this package.

## Examples

The first example shows how to list all available filters. We use
`head()` to limit the output.

``` r
library(photobiologyFilters)
library(ggspectra)
theme_set(theme_bw())
```

``` r
length(names(filters.mspct))
#> [1] 234
```

``` r
# list names of the first 10 filters
head(names(filters.mspct), 10)
#>  [1] "UG1"  "UG5"  "UG11" "BG3"  "BG7"  "BG18" "BG25" "BG36" "BG38" "BG39"
```

The second example shows how to use a predefined vector of filter names
to extract those made of polyester (PET). Please, see the *User Guide*
or documentation for the names of other vectors of names for materials,
suppliers, and regions of the spectrum.

``` r
polyester
#> [1] "Clear_PET_G"            "PET_Autostat_CT5_125um"
filters.mspct[polyester]
#> Object: filter_mspct [2 x 1]
#> --- Member: Clear_PET_G ---
#> Object: filter_spct [911 x 2]
#> Wavelength range 190 to 1100 nm, step 1 nm 
#> Label: ; clear sheet; new 
#> 
#> # A tibble: 911 x 2
#>    w.length      Tfr
#>       <dbl>    <dbl>
#>  1      190 0.000101
#>  2      191 0.000109
#>  3      192 0.000108
#>  4      193 0.000101
#>  5      194 0.000100
#>  6      195 0.000100
#>  7      196 0.000100
#>  8      197 0.000100
#>  9      198 0.000100
#> 10      199 0.000100
#> # ... with 901 more rows
#> --- Member: PET_Autostat_CT5_125um ---
#> Object: filter_spct [611 x 2]
#> Wavelength range 190 to 800 nm, step 1 nm 
#> Label: Polyester, clear film, 0.000125 m thick, Autostat CT5 from McDermit Autotype; new 
#> 
#> # A tibble: 611 x 2
#>    w.length   Tfr
#>       <int> <dbl>
#>  1      190 0.011
#>  2      191 0.01 
#>  3      192 0.011
#>  4      193 0.015
#>  5      194 0.016
#>  6      195 0.012
#>  7      196 0.011
#>  8      197 0.011
#>  9      198 0.011
#> 10      199 0.011
#> # ... with 601 more rows
#> 
#> --- END ---
```

Summary calculations can be easily done with methods from package
‘photobiology’. Here we calculate mean transmittance for two regions
of the spectrum given by wavelengths in nanometres.

``` r
transmittance(filters.mspct["Clear_PET_G"], 
              list(waveband(c(250, 315)), waveband(c(500,600))))
#> # A tibble: 1 x 3
#>   spct.idx    transmittance_range.250.315 transmittance_range.500.600
#>   <fct>                             <dbl>                       <dbl>
#> 1 Clear_PET_G                    0.000177                       0.876
```

Methods in package ‘ggspectra’ can be used for plotting.

``` r
autoplot(filters.mspct["Clear_PET_G"]) +
  stat_find_wls(target = c(0.5, 0.05)) +
  stat_find_wls(target =c(0.5, 0.05), geom = "text", hjust = 1.2)
```

![](man/figures/README-example-07-1.png)<!-- -->

The clas

File: KnightX-ND4-resin.csv
Wavelength (nm);Transmittance(%);Std.Dev.
190;0.0119018;0.0117348
194;0.01;0.0169369
198;0.01;0.00889591
202;0.01;0.0146345
206;0.01;0.0308547
210;0.01;0.00864338
214;0.01;0.0102955
218;0.01;0.00634909
222;0.01;0.020043
226;0.01;0.0160848
230;0.01;0.016605
234;0.01;0.0207482
238;0.01;0.0370992
242;0.01;0.012625
246;0.0100608;0.016136
250;0.01;0.00469623
254;0.0191226;0.00203738
258;0.132685;0.00238861
262;0.318713;0.00266109
266;0.497735;0.00238328
270;0.518153;0.00466677
274;0.41513;0.0027799
278;0.279377;0.00329226
282;0.163076;0.00426788
286;0.0874838;0.00480652
290;0.0374335;0.00355441
294;0.0438714;0.00383286
298;0.0243005;0.00712095
302;0.0321164;0.00345504
306;0.0593453;0.00684564
310;0.0838959;0.00276047
314;0.111035;0.00276587
318;0.107515;0.00273133
322;0.0865868;0.00464446
326;0.0497207;0.00351029
330;0.0459437;0.00654501
334;0.0456231;0.00540384
338;0.0274833;0.00287418
342;0.0433618;0.00570628
346;0.0379637;0.00322404
350;0.0849378;0.0084332
354;0.0895521;0.00679954
358;0.180964;0.00582221
362;0.390509;0.00954198
366;0.882243;0.00679315
370;2.03886;0.00847682
374;4.2887;0.0082384
378;7.77557;0.00671998
382;11.3717;0.0074193
386;14.6289;0.00475022
390;17.0258;0.0060633
394;18.6597;0.00983537
398;19.7761;0.00582418
402;20.614;0.0107674
406;21.3515;0.00581926
410;21.9954;0.00908914
414;22.4987;0.005172
418;23.0338;0.00792354
422;23.6785;0.00581088
426;24.3761;0.00633498
430;25.1283;0.00806
434;25.7388;0.00847503
438;26.2758;0.0126766
442;26.7841;0.0132381
446;27.3265;0.00987727
450;27.9016;0.00918225
454;28.538;0.0118074
458;29.1001;0.013585
462;29.544;0.00982461
466;29.9453;0.0111422
470;30.1886;0.00878358
474;30.4268;0.0119097
478;30.6268;0.00882668
482;30.8076;0.00455866
486;30.9495;0.0047384
490;31.0109;0.00835517
494;30.9548;0.00950787
498;30.8838;0.00693223
502;30.8092;0.00659048
506;30.7729;0.00840945
510;30.7544;0.00592312
514;30.6934;0.00595728
518;30.529;0.00585173
522;30.2279;0.00697126
526;29.815;0.00559558
530;29.3411;0.00548663
534;28.8737;0.00565881
538;28.4795;0.00507883
542;28.1833;0.00361662
546;27.9667;0.00316193
550;27.8136;0.00558723
554;27.6413;0.00390301
558;27.3864;0.00529438
562;26.9863;0.00431275
566;26.4184;0.00273522
570;25.7426;0.00267967
574;25.0324;0.0032198
578;24.4234;0.00380038
582;24.0222;0.00240153
586;23.968;0.0031307
590;24.297;0.00531925
594;24.8977;0.00337289
598;25.6273;0.00344736
602;26.2999;0.0067916
606;26.7608;0.00504896
610;26.9212;0.00466825
614;26.7603;0.00394744
618;26.3774;0.00416549
622;25.893;0.0051524
626;25.6112;0.00510841
630;25.4741;0.00610363
634;25.9586;0.0036726
638;27.1115;0.0036621
642;28.8882;0.00506029
646;31.0824;0.00502168
650;33.4511;0.00618556
654;35.8654;0.00323792
658;38.1047;0.00676823
662;40.1558;0.00620721
666;41.8013;0.00482717
670;43.1896;0.00640333
674;44.1737;0.00611188
678;44.9661;0.00597307
682;45.6134;0.00438636
686;46.1313;0.00677446
690;46.617;0.00616172
694;47.0471;0.00422268
698;47.4902;0.0039184
702;47.8942;0.0052624
706;48.2524;0.00602997
710;48.5745;0.00461305
714;48.8384;0.00471802
718;49.0381;0.00535245
722;49.1881;0.00548797
726;49.3004;0.00556616
730;49.3967;0.00450489
734;49.5133;0.0052539
738;49.6546;0.00577987
742;49.8309;0.00557206
746;50.0519;0.00494075
750;50.3253;0.00804982
754;50.6086;0.00548334
758;50.9323;0.0065832
762;51.2242;0.00560279
766;51.5369;0.00472767
770;51.7779;0.00576417
774;51.997;0.00514528
778;52.152;0.00789949
782;52.2527;0.00651031
786;52.313;0.00789405
790;52.3485;0.00890625
794;52.3926;0.00603751
798;52.4174;0.00582088
802;52.4677;0.00703435
806;52.5478;0.00559376
810;52.6596;0.00619274
814;52.8174;0.00697995
818;53.0354;0.00715917
822;53.2683;0.00577803
826;53.542;0.00677925
830;53.8019;0.00686827
834;54.0678;0.00652547
838;54.3196;0.00708934
842;54.5404;0.00710328
846;54.7239;0.0065645
850;54.8606;0.00729996
854;54.9691;0.00741751
858;55.0008;0.00882624
862;55.0235;0.00444203
866;55.0144;0.00660998
870;54.9915;0.00934793
874;54.9524;0.0092181
878;54.9309;0.00889349
882;54.865;0.00900433
886;54.7919;0.00645445
890;54.8144;0.00614879
894;54.8874;0.00803458
898;55.0331;0.00595307
902;55.2664;0.00680917
906;55.5764;0.00734544
910;55.8948;0.00929144
914;56.2176;0.0110658
918;56.564;0.013773
922;56.8386;0.00637829
926;57.0736;0.00760475
930;57.3053;0.0117188
934;57.4703;0.0145847
938;57.6036;0.0141202
942;57.7014;0.00978872
946;57.787;0.0110568
950;57.7878;0.0111496
954;57.7866;0.0103444
958;57.7342;0.0111796
962;57.7648;0.00893369
966;57.695;0.0112445
970;57.6741;0.0105169
974;57.6636;0.0135162
978;57.6589;0.0131389
982;57.6434;0.0168451
986;57.686;0.0109206
990;57.7844;0.0193231
994;57.8297;0.0173064
998;57.9307;0.019545
1002;58.0863;0.0223253
1006;58.2373;0.0261735
1010;58.4603;0.0364365
1014;58.6536;0.02959
1018;58.9461;0.0344439
1022;59.1556;0.0389442
1026;59.356;0.0461016
1030;59.5158;0.0437089
1034;59.7139;0.0417864
1038;59.9772;0.0592924
1042;60.0656;0.0399111
1046;60.3375;0.0627019
1050;60.5113;0.102723
1054;60.2702;0.104646
1058;60.3001;0.116049
1062;60.4223;0.120927
1066;60.5753;0.130305
1070;60.4243;0.121461
1074;60.7095;0.136729
1078;60.177;0.164393
1082;60.0697;0.202732
1086;60.349;0.186855
1090;59.9154;0.266027
1094;59.9767;0.299594
1098;60.0508;0.160117
1100;59.6777;0.30429

File: KnightX-ND16-resin.CSV
Wavelength (nm);Transmittance(%);Std.Dev.
190;0.01;0.00455733
194;0.0100454;0.00495956
198;0.0111301;0.0120749
202;0.01;0.031944
206;0.01;0.024662
210;0.01;0.0091324
214;0.01;0.0128259
218;0.01;0.00733093
222;0.01;0.0141694
226;0.01;0.00571026
230;0.01;0.0178843
234;0.01;0.00672049
238;0.01;0.0371088
242;0.01;0.00868819
246;0.01;0.0115526
250;0.01;0.00754746
254;0.0107214;0.00652317
258;0.01;0.0111092
262;0.01;0.0156894
266;0.01;0.0151924
270;0.01;0.0172638
274;0.01;0.0159895
278;0.01;0.0102114
282;0.0104453;0.00258272
286;0.010038;0.014231
290;0.01;0.014387
294;0.01;0.0172849
298;0.013094;0.0247985
302;0.01;0.0142019
306;0.0159642;0.0185931
310;0.010044;0.0101684
314;0.01;0.00908955
318;0.01;0.00362468
322;0.01;0.00873902
326;0.01;0.0162542
330;0.0100331;0.00801052
334;0.01;0.0101241
338;0.0101794;0.0038948
342;0.0101087;0.0120954
346;0.0104407;0.0111931
350;0.0165929;0.010395
354;0.0101513;0.0152663
358;0.0282404;0.00911889
362;0.012933;0.00688142
366;0.0261267;0.0189281
370;0.01;0.012065
374;0.0359014;0.00794078
378;0.0810531;0.00708903
382;0.135468;0.0096108
386;0.162145;0.00699311
390;0.222224;0.00599181
394;0.248637;0.00519783
398;0.278881;0.00645017
402;0.297726;0.00564387
406;0.321991;0.00698396
410;0.360973;0.00804669
414;0.416948;0.00815008
418;0.472739;0.00402451
422;0.555497;0.00627568
426;0.58623;0.00641608
430;0.681109;0.00639335
434;0.731757;0.00553537
438;0.835975;0.00517684
442;0.909918;0.00784137
446;0.974141;0.0071909
450;1.03209;0.00844915
454;1.12055;0.00726802
458;1.16;0.00866301
462;1.24447;0.0098847
466;1.32207;0.00533556
470;1.34731;0.0066717
474;1.40051;0.00609257
478;1.42333;0.00626989
482;1.44493;0.0033958
486;1.44446;0.00290965
490;1.43982;0.00356445
494;1.40618;0.00563421
498;1.37332;0.0039605
502;1.34942;0.00458225
506;1.31636;0.00583758
510;1.29422;0.00626193
514;1.26687;0.00549392
518;1.21255;0.00391828
522;1.16926;0.00310342
526;1.09871;0.00293006
530;1.03019;0.00517076
534;0.953343;0.00631776
538;0.894642;0.00312509
542;0.834931;0.00292322
546;0.791589;0.00389679
550;0.772694;0.00472475
554;0.744417;0.00412857
558;0.71238;0.00380823
562;0.674915;0.00390846
566;0.619534;0.00408747
570;0.565177;0.00342623
574;0.515826;0.00315206
578;0.464005;0.00200241
582;0.446752;0.00329335
586;0.444293;0.00232952
590;0.477464;0.00396443
594;0.516791;0.00287843
598;0.586489;0.00301582
602;0.656016;0.00360529
606;0.714266;0.00309149
610;0.746992;0.00166438
614;0.750627;0.00305751
618;0.748784;0.00225189
622;0.740618;0.00404086
626;0.724126;0.00223343
630;0.750039;0.0026827
634;0.828054;0.00250482
638;0.974897;0.00301166
642;1.2274;0.0051403
646;1.59668;0.00419496
650;2.0439;0.00627932
654;2.58423;0.00392948
658;3.17677;0.00306947
662;3.82121;0.00356548
666;4.43911;0.00381601
670;5.01896;0.00543023
674;5.53636;0.00338849
678;5.9892;0.00288591
682;6.3932;0.00319231
686;6.75067;0.00320964
690;7.06197;0.00300333
694;7.31853;0.00363252
698;7.5769;0.00404627
702;7.80276;0.0019232
706;8.0009;0.00399878
710;8.18318;0.00296394
714;8.35696;0.00350714
718;8.52789;0.00345493
722;8.68063;0.00332946
726;8.83126;0.00350954
730;8.977;0.00332527
734;9.12984;0.00338319
738;9.277;0.00475115
742;9.41276;0.0036456
746;9.56175;0.00346428
750;9.69728;0.00284565
754;9.83555;0.00385366
758;9.96402;0.00371015
762;10.0959;0.00421586
766;10.2045;0.00185974
770;10.3116;0.00455927
774;10.4159;0.00319733
778;10.5177;0.0032406
782;10.6236;0.00294491
786;10.7117;0.00277216
790;10.8176;0.00311185
794;10.9134;0.00384816
798;11.0197;0.00467584
802;11.1395;0.00388383
806;11.2531;0.00267088
810;11.3848;0.00446727
814;11.5212;0.00266344
818;11.6584;0.00450984
822;11.8104;0.00252227
826;11.9592;0.00374038
830;12.1053;0.00301973
834;12.2615;0.0044395
838;12.4048;0.00398363
842;12.5613;0.00468711
846;12.7053;0.00402231
850;12.8411;0.00480234
854;12.9699;0.00528746
858;13.0965;0.00518298
862;13.2292;0.00367734
866;13.3404;0.00485394
870;13.4614;0.00297679
874;13.5724;0.00337599
878;13.6839;0.0045754
882;13.773;0.00526311
886;13.8626;0.0033055
890;13.9525;0.00346933
894;14.0625;0.0046148
898;14.1712;0.00412754
902;14.3024;0.0055497
906;14.4485;0.00355344
910;14.585;0.00473192
914;14.7247;0.00504175
918;14.8603;0.00487179
922;15.0021;0.00770592
926;15.11;0.00830369
930;15.214;0.00375212
934;15.3319;0.00692831
938;15.4267;0.00791434
942;15.5193;0.0085289
946;15.6154;0.00759881
950;15.7;0.00713776
954;15.7902;0.0103116
958;15.8581;0.00726694
962;15.9409;0.00919371
966;16.0413;0.00867533
970;16.1116;0.00804345
974;16.1951;0.0060734
978;16.2992;0.0105643
982;16.3888;0.0144223
986;16.4829;0.0109661
990;16.5596;0.0123102
994;16.6906;0.0132168
998;16.7941;0.0219409
1002;16.8632;0.0148697
1006;17.0516;0.0146451
1010;17.0908;0.0131443
1014;17.2472;0.0312407
1018;17.4613;0.0388707
1022;17.5811;0.0395314
1026;17.6845;0.0300388
1030;17.8641;0.0345108
1034;17.8933;0.0639568
1038;18.1215;0.0387474
1042;18.1984;0.0451305
1046;18.413;0.0446865
1050;18.4347;0.0879367
1054;18.4904;0.0581031
1058;18.9696;0.0746499
1062;19.0387;0.100794
1066;18.8727;0.081881
1070;19.094;0.104325
1074;19.4983;0.108115
1078;19.2492;0.111696
1082;19.1759;0.153704
1086;19.9653;0.167827
1090;19.345;0.223225
1094;19.4166;0.294083
1098;19.1982;0.388805
1100;19.1475;0.248306

File: Zomei-ND09-Resin-1.7mm-52mm-LYR.CSV
Wavelength (nm);Transmittance(%);Std.Dev.
190;0.0100533;0.00409312
194;0.01;0.0152864
198;0.0110866;0.00759088
202;0.01;0.0099162
206;0.01;0.00690939
210;0.01;0.0224636
214;0.01;0.00694472
218;0.01;0.0146088
222;0.0100112;0.0091277
226;0.01;0.00621385
230;0.01;0.0327943
234;0.01;0.0333704
238;0.01;0.00410187
242;0.01;0.00695403
246;0.01;0.0142678
250;0.01;0.0130637
254;0.01;0.00639748
258;0.0100425;0.00578463
262;0.0185019;0.004366
266;0.0214626;0.0016713
270;0.0291512;0.00318052
274;0.0127827;0.00456396
278;0.0100408;0.00964072
282;0.01;0.0134929
286;0.0119672;0.00357311
290;0.01;0.00410384
294;0.0102422;0.00763984
298;0.0100181;0.0127603
302;0.01;0.00474646
306;0.01;0.00575648
310;0.01;0.016247
314;0.01;0.00873184
318;0.01;0.0191716
322;0.01;0.0161222
326;0.01;0.0140026
330;0.01;0.0128303
334;0.01;0.0198152
338;0.0100145;0.0125104
342;0.01;0.00733547
346;0.0162983;0.0158136
350;0.010805;0.0122816
354;0.0223517;0.0101095
358;0.0101641;0.0104396
362;0.0141102;0.00885081
366;0.0140602;0.00572416
370;0.0270529;0.00813393
374;0.124441;0.0110136
378;0.353186;0.00646035
382;0.7239;0.00389688
386;1.5553;0.0058867
390;2.61033;0.00696175
394;3.72525;0.00364457
398;4.78951;0.00551078
402;5.62339;0.00475184
406;6.3435;0.00592696
410;6.9193;0.00428692
414;7.44613;0.00697806
418;7.93309;0.00576423
422;8.47946;0.00615841
426;8.98129;0.00886471
430;9.5831;0.00776874
434;10.1583;0.00911956
438;10.7345;0.00858019
442;11.2985;0.00747405
446;11.8494;0.00845334
450;12.3364;0.00373357
454;12.7417;0.00528453
458;13.1408;0.00992216
462;13.436;0.00912345
466;13.6887;0.00641144
470;13.8698;0.0110243
474;14.0673;0.00662445
478;14.1847;0.00743503
482;14.2526;0.00481352
486;14.4025;0.00337695
490;14.2532;0.00629333
494;14.1807;0.00585441
498;14.075;0.00571281
502;13.9486;0.00594853
506;13.7932;0.00473309
510;13.6169;0.00843922
514;13.4531;0.003716
518;13.2097;0.00509135
522;12.9023;0.00557551
526;12.5224;0.00571514
530;12.0846;0.00366351
534;11.6112;0.00470119
538;11.1752;0.00338987
542;10.8115;0.00573876
546;10.5459;0.00344891
550;10.3472;0.00458313
554;10.1872;0.00445072
558;9.97917;0.00387267
562;9.70429;0.00289468
566;9.34732;0.00333797
570;8.93064;0.00351676
574;8.50771;0.00255749
578;8.1436;0.00312476
582;7.94335;0.00294233
586;7.93216;0.00242872
590;8.15952;0.00436418
594;8.56977;0.00520657
598;9.08289;0.00191001
602;9.57592;0.00351273
606;9.96584;0.004857
610;10.1887;0.00361581
614;10.2331;0.00373478
618;10.1499;0.00281862
622;10.056;0.00251459
626;9.89606;0.00361374
630;10.0617;0.00355111
634;10.545;0.00414202
638;11.4147;0.00407308
642;12.7447;0.00781211
646;14.4165;0.00389212
650;16.231;0.00412724
654;18.2137;0.00595454
658;20.0534;0.00513086
662;22.0215;0.00479872
666;23.6176;0.00546821
670;25.0826;0.00372722
674;26.2332;0.00438061
678;27.2308;0.00488094
682;28.0631;0.00538842
686;28.7552;0.00379271
690;29.3557;0.00545101
694;29.8619;0.00507883
698;30.3323;0.00677365
702;30.7532;0.0054592
706;31.1154;0.00504151
710;31.4638;0.00478845
714;31.7824;0.00573587
718;32.0948;0.00460348
722;32.3863;0.00551252
726;32.656;0.00503478
730;32.9229;0.00657694
734;33.18;0.00645833
738;33.4171;0.00512224
742;33.6441;0.00512267
746;33.8808;0.00523063
750;34.1;0.00571306
754;34.2857;0.0069911
758;34.502;0.00699101
762;34.6657;0.00726106
766;34.8568;0.00488083
770;35.013;0.0066546
774;35.1581;0.00778559
778;35.3455;0.00469984
782;35.4867;0.0065438
786;35.607;0.00600169
790;35.7321;0.0045875
794;35.86;0.0067807
798;35.9959;0.00512735
802;36.1293;0.00719302
806;36.2411;0.00699059
810;36.3728;0.0068621
814;36.4822;0.00590808
818;36.6087;0.00556041
822;36.7598;0.00676244
826;36.9026;0.00643744
830;37.0498;0.00677867
834;37.1888;0.00670922
838;37.3388;0.0084818
842;37.4976;0.00915825
846;37.6587;0.00979984
850;37.8202;0.00760259
854;37.9766;0.00596701
858;38.1431;0.00775009
862;38.3075;0.00527035
866;38.4614;0.00762079
870;38.6247;0.0110222
874;38.7891;0.00824223
878;38.9496;0.00734763
882;39.0638;0.00731543
886;39.1663;0.00680724
890;39.2784;0.00762916
894;39.4412;0.00645039
898;39.6298;0.00780502
902;39.8694;0.00717161
906;40.1227;0.0073845
910;40.4012;0.00897123
914;40.6789;0.00792375
918;40.9451;0.00863834
922;41.1919;0.0104438
926;41.4118;0.00990399
930;41.6139;0.0112919
934;41.8567;0.00991541
938;42.0361;0.0109887
942;42.2136;0.00974184
946;42.385;0.0125853
950;42.5523;0.0118919
954;42.7202;0.0101675
958;42.8344;0.0120295
962;42.9727;0.0115202
966;43.1089;0.0170042
970;43.2164;0.0111306
974;43.3132;0.0184346
978;43.4366;0.0134345
982;43.4958;0.0131642
986;43.5814;0.0198445
990;43.6585;0.0176167
994;43.7467;0.0211808
998;43.8274;0.0289256
1002;43.872;0.0277042
1006;43.9606;0.0385256
1010;44.1261;0.0379323
1014;44.1662;0.0328618
1018;44.3606;0.0374944
1022;44.4391;0.0300649
1026;44.5913;0.0374311
1030;44.6909;0.054423
1034;44.7848;0.0613665
1038;44.9374;0.0680388
1042;45.0173;0.0527047
1046;44.9931;0.0875304
1050;45.3854;0.0828273
1054;45.3382;0.0699763
1058;45.3298;0.118572
1062;45.5592;0.135051
1066;45.6171;0.160102
1070;45.7531;0.129183
1074;45.621;0.166371
1078;45.5121;0.21917
1082;46.1958;0.226062
1086;45.5892;0.178814
1090;45.7908;0.242584
1094;45.9183;0.31782
1098;45.6523;0.283682
1100;45.5167;0.276067