Folder: photobiologyFilters/raw.data/Petri_dishes

Note: README.md
# photobiologyFilters

[![](https://www.r-pkg.org/badges/version/photobiologyFilters)](https://cran.r-project.org/package=photobiologyFilters)

Package **photobiologyFilters** is a collection of spectral
transmittance data for more than 250 filters measured in our lab or for
which data have been made available by the suppliers for inclussion in
this package.

## Examples

The first example shows how to list all available filters. We use
`head()` to limit the output.

``` r
library(photobiologyFilters)
library(ggspectra)
theme_set(theme_bw())
```

``` r
length(names(filters.mspct))
#> [1] 234
```

``` r
# list names of the first 10 filters
head(names(filters.mspct), 10)
#>  [1] "UG1"  "UG5"  "UG11" "BG3"  "BG7"  "BG18" "BG25" "BG36" "BG38" "BG39"
```

The second example shows how to use a predefined vector of filter names
to extract those made of polyester (PET). Please, see the *User Guide*
or documentation for the names of other vectors of names for materials,
suppliers, and regions of the spectrum.

``` r
polyester
#> [1] "Clear_PET_G"            "PET_Autostat_CT5_125um"
filters.mspct[polyester]
#> Object: filter_mspct [2 x 1]
#> --- Member: Clear_PET_G ---
#> Object: filter_spct [911 x 2]
#> Wavelength range 190 to 1100 nm, step 1 nm 
#> Label: ; clear sheet; new 
#> 
#> # A tibble: 911 x 2
#>    w.length      Tfr
#>       <dbl>    <dbl>
#>  1      190 0.000101
#>  2      191 0.000109
#>  3      192 0.000108
#>  4      193 0.000101
#>  5      194 0.000100
#>  6      195 0.000100
#>  7      196 0.000100
#>  8      197 0.000100
#>  9      198 0.000100
#> 10      199 0.000100
#> # ... with 901 more rows
#> --- Member: PET_Autostat_CT5_125um ---
#> Object: filter_spct [611 x 2]
#> Wavelength range 190 to 800 nm, step 1 nm 
#> Label: Polyester, clear film, 0.000125 m thick, Autostat CT5 from McDermit Autotype; new 
#> 
#> # A tibble: 611 x 2
#>    w.length   Tfr
#>       <int> <dbl>
#>  1      190 0.011
#>  2      191 0.01 
#>  3      192 0.011
#>  4      193 0.015
#>  5      194 0.016
#>  6      195 0.012
#>  7      196 0.011
#>  8      197 0.011
#>  9      198 0.011
#> 10      199 0.011
#> # ... with 601 more rows
#> 
#> --- END ---
```

Summary calculations can be easily done with methods from package
‘photobiology’. Here we calculate mean transmittance for two regions
of the spectrum given by wavelengths in nanometres.

``` r
transmittance(filters.mspct["Clear_PET_G"], 
              list(waveband(c(250, 315)), waveband(c(500,600))))
#> # A tibble: 1 x 3
#>   spct.idx    transmittance_range.250.315 transmittance_range.500.600
#>   <fct>                             <dbl>                       <dbl>
#> 1 Clear_PET_G                    0.000177                       0.876
```

Methods in package ‘ggspectra’ can be used for plotting.

``` r
autoplot(filters.mspct["Clear_PET_G"]) +
  stat_find_wls(target = c(0.5, 0.05)) +
  stat_find_wls(target =c(0.5, 0.05), geom = "text", hjust = 1.2)
```

![](man/figures/README-example-07-1.png)<!-- -->

The clas

File: glass_nn.csv
Wavelength (nm),Transmittance(%),Std.Dev.
190,0.0164358,0.0036111
194,0.0138933,0.00270435
198,0.01,0.0154608
202,0.01,0.00460117
206,0.01,0.0032708
210,0.0100408,0.00469318
214,0.01,0.00526936
218,0.0119645,0.00329836
222,0.01,0.00858208
226,0.01,0.00610566
230,0.01,0.00217577
234,0.01,0.00280943
238,0.0100202,0.00238281
242,0.01,0.00776435
246,0.014024,0.0051086
250,0.0138626,0.00268977
254,0.013615,0.00226286
258,0.0169979,0.0026285
262,0.0113201,0.00312049
266,0.0189341,0.0030414
270,0.021978,0.0032804
274,0.0331333,0.00259992
278,0.0566691,0.00371531
282,0.132137,0.00237544
286,0.392943,0.00321669
290,1.13775,0.00423738
294,2.90512,0.00477718
298,6.41631,0.0040257
302,12.1585,0.00463458
306,20.0764,0.00706848
310,29.6131,0.00689632
314,39.7922,0.00883406
318,49.7237,0.0114781
322,58.6779,0.0109325
326,66.2729,0.0151882
330,72.4049,0.0135804
334,77.164,0.0191113
338,80.7495,0.018448
342,83.3819,0.0159528
346,85.254,0.0180141
350,86.6327,0.0201316
354,87.6184,0.0147565
358,88.3963,0.0283867
362,88.8014,0.016832
366,89.3478,0.0213011
370,89.607,0.0183761
374,89.6059,0.0193608
378,89.5002,0.0170224
382,89.5155,0.0261864
386,89.8374,0.0219491
390,90.1336,0.01717
394,90.3137,0.0198183
398,90.5041,0.0206249
402,90.4952,0.015323
406,90.5312,0.0235075
410,90.5242,0.0189461
414,90.5002,0.0212809
418,90.5043,0.0216522
422,90.5623,0.0239356
426,90.5196,0.0233282
430,90.6229,0.0210146
434,90.6628,0.0163589
438,90.6136,0.0175529
442,90.5939,0.0216631
446,90.616,0.026312
450,90.6837,0.0188752
454,90.6949,0.0216442
458,90.8253,0.0205892
462,90.8326,0.0200098
466,90.9048,0.0172708
470,90.9516,0.0196292
474,91.0104,0.0196053
478,91.069,0.0164556
482,91.098,0.0160531
486,91.3651,0.01765
490,91.1578,0.0194484
494,91.1543,0.0188928
498,91.1925,0.020586
502,91.2034,0.0173723
506,91.2659,0.0193229
510,91.2366,0.0214747
514,91.2435,0.0190856
518,91.2476,0.01617
522,91.2581,0.0141874
526,91.2648,0.0211326
530,91.271,0.0165264
534,91.3013,0.0188172
538,91.2818,0.0164119
542,91.2875,0.0155876
546,91.2687,0.0160507
550,91.2528,0.0164647
554,91.2325,0.0167801
558,91.2286,0.018085
562,91.1994,0.0159032
566,91.1975,0.014741
570,91.1999,0.014624
574,91.2037,0.0182932
578,91.146,0.0161455
582,91.1702,0.0167172
586,91.0595,0.0201021
590,91.0524,0.0160217
594,91.0339,0.0154482
598,91.035,0.0168224
602,91.0022,0.0179486
606,90.9986,0.0202742
610,90.9916,0.0170466
614,90.9458,0.0167881
618,90.9568,0.0149043
622,91.3221,0.0144657
626,90.4897,0.0163204
630,90.8718,0.015915
634,90.8735,0.0180555
638,90.786,0.0187174
642,90.7935,0.0201871
646,90.8392,0.0183257
650,90.6151,0.0218746
654,90.6899,0.0192875
658,90.4051,0.0198701
662,90.6553,0.0162255
666,90.6084,0.0140181
670,90.5581,0.0182738
674,90.5009,0.0165044
678,90.5155,0.0214877
682,90.4251,0.0193166
686,90.4295,0.0195937
690,90.3442,0.0155612
694,90.3612,0.0206048
698,90.297,0.0178274
702,90.2295,0.0154756
706,90.2123,0.0179178
710,90.1817,0.0175336
714,90.1817,0.0198393
718,90.123,0.0152901
722,90.1165,0.01891
726,90.0667,0.0191718
730,89.9902,0.0179603
734,89.8958,0.0190553
738,89.8676,0.0184385
742,89.9163,0.0186727
746,89.8372,0.0200722
750,89.7262,0.0179893
754,89.7703,0.0199368
758,89.6372,0.0212113
762,89.7134,0.0193535
766,89.5888,0.0187529
770,89.5778,0.021512
774,89.56,0.0186086
778,89.4664,0.0201466
782,89.4119,0.0188682
786,89.4076,0.0224429
790,89.375,0.017748
794,89.3056,0.0198684
798,89.2772,0.0192069
802,89.2332,0.0166103
806,89.1767,0.0198649
810,89.1757,0.0188712
814,89.1208,0.0215334
818,89.1081,0.0199424
822,89.0497,0.0197186
826,88.9646,0.0189281
830,88.9757,0.0244635
834,88.9658,0.0201303
838,88.9166,0.0199512
842,88.8676,0.0187035
846,88.8642,0.0240242
850,88.7905,0.0186974
854,88.781,0.020422
858,88.741,0.0234668
862,88.7257,0.0199969
866,88.7001,0.0198176
870,88.6696,0.0173932
874,88.6349,0.0197988
878,88.6188,0.0208544
882,88.6063,0.0198258
886,88.5591,0.0211904
890,88.5598,0.0191185
894,88.5229,0.0225751
898,88.48,0.0171186
902,88.4755,0.0247338
906,88.4636,0.0224396
910,88.4646,0.0195722
914,88.4435,0.0207014
918,88.438,0.0285689
922,88.4083,0.0226605
926,88.4194,0.0201914
930,88.3829,0.0232201
934,88.4041,0.0219652
938,88.3524,0.0227949
942,88.3489,0.0215212
946,88.3339,0.0183138
950,88.3576,0.020899
954,88.3554,0.02318
958,88.3346,0.0227919
962,88.3149,0.0203947
966,88.3418,0.0248256
970,88.311,0.0248002
974,88.3346,0.0240056
978,88.294,0.0212131
982,88.3237,0.0282444
986,88.3291,0.0307815
990,88.321,0.0192915
994,88.3578,0.0370148
998,88.364,0.0237253
1002,88.3522,0.029781
1006,88.272,0.0393954
1010,88.3364,0.0353788
1014,88.3531,0.0445037
1018,88.3709,0.0308163
1022,88.3506,0.0410331
1026,88.395,0.0573772
1030,88.4245,0.0336087
1034,88.5157,0.0807695
1038,88.4782,0.0624771
1042,88.4279,0.0952537
1046,88.4812,0.0869931
1050,88.6434,0.0851471
1054,88.615,0.0894087
1058,88.5407,0.112975
1062,88.5484,0.136774
1066,88.4852,0.136864
1070,88.3993,0.171056
1074,88.7883,0.183928
1078,88.8342,0.279797
1082,88.5214,0.20031
1086,88.6615,0.250557
1090,88.6347,0.242699
1094,88.416,0.294189
1098,88.8207,0.318814
1100,88.4769,0.287407